Folder: Preliminary-Sizing/data/weight

File: lipo_weight_data.csv
Battery Capacity (mAh),Battery Voltage (V),Energy (Wh),Energy Density (Wh/lb),Battery Weight (oz)
1300,22.2,28.86,66.1547,6.98
2000,22.2,44.4,96.7847,7.34
2250,22.2,49.95,71.4848,11.18
2800,22.2,62.16,76.6225,12.98
3250,22.2,72.15,67.7465,17.04
3750,22.2,83.25,64.8807,20.53
4000,22.2,88.8,70.3018,20.21
4500,22.2,99.9,74.0686,21.58
4750,22.2,105.45,90.6122,18.62
5450,22.2,120.99,79.2079,24.44
5200,22.2,115.44,71.1495,25.96
6000,22.2,133.2,76.305,27.93
1300,29.6,38.48,67.1407,9.17
2000,29.6,59.2,72.5824,13.05
2250,29.6,66.6,72.8366,14.63
2800,29.6,82.88,77.0529,17.21
3250,29.6,96.2,68.2875,22.54
4000,29.6,118.4,70.7658,26.77
4500,29.6,133.2,75.1481,28.36
3750,29.6,111,66.0714,26.88
4750,29.6,140.6,90.6001,24.83
5450,29.6,161.32,79.6396,32.41
5200,29.6,153.92,71.5491,34.42
6000,29.6,177.6,77.029,36.89
6500,29.6,192.4,69.0999,44.55
7500,29.6,222,67.9548,52.27
8000,29.6,236.8,71.2314,53.19
8000,29.6,236.8,80.6471,46.98
1300,37,48.1,67.7465,11.36
2000,37,74,72.9513,16.23
2250,37,83.25,73.5912,18.1
2800,37,103.6,77.3134,21.44
3250,37,120.25,68.6163,28.04
3750,37,138.75,66.8272,33.22
4000,37,148,71.0471,33.33
4500,37,166.5,75.8326,35.13
4750,37,175.75,90.5928,31.04
5200,37,192.4,71.7743,42.89
5450,37,201.65,79.9009,40.38
6000,37,222,77.47,45.85
6500,37,240.5,69.2709,55.55
7500,37,277.5,68.3392,64.97
8000,37,296,71.4221,66.31
8000,37,296,80.7915,58.62
1300,14.8,19.24,64.2672,4.79
2000,14.8,29.6,70.6866,6.7
2250,14.8,33.3,69.0155,7.72
2800,14.8,41.44,47.2587,14.03
3250,14.8,48.1,66.7476,11.53
3750,14.8,55.5,62.6234,14.18
4000,14.8,59.2,69.2398,13.68
4500,14.8,66.6,71.9514,14.81
4750,14.8,70.3,90.6366,12.41
5200,14.8,76.96,70.4037,17.49
5450,14.8,80.66,78.3582,16.47
6000,14.8,88.8,74.8972,18.97
6500,14.8,96.2,68.2875,22.54
7500,14.8,111,66.096,26.87